File: data/rim_diam_compression/DTS-R460.txt
SI Load [lb]	SI Stroke [in]
-1.0654	-1.4551
-2.2374	-1.4534
-0.1278	-1.454
-2.1202	-1.4552
-0.5966	-1.4535
-0.9482	-1.4532
-0.7138	-1.4526
-2.4718	-1.454
-0.1278	-1.4557
-1.0654	-1.4566
-0.3622	-1.4542
-1.1826	-1.4546
-3.8782	-1.4571
-2.003	-1.4579
-0.7138	-1.4569
-1.6514	-1.4581
-3.4094	-1.459
-1.7686	-1.4587
-3.4094	-1.4591
-3.8782	-1.4595
-3.8782	-1.46
-2.589	-1.4584
-1.1826	-1.4591
-2.589	-1.461
-4.347	-1.4604
-2.9406	-1.4615
-3.2922	-1.4599
-3.2922	-1.462
-2.589	-1.461
-4.347	-1.462
-2.7062	-1.4625
-4.347	-1.4619
-2.4718	-1.4621
-3.9955	-1.464
-4.347	-1.4635
-6.6911	-1.4639
-6.2223	-1.4641
-8.0975	-1.4641
-4.347	-1.4662
-4.347	-1.4654
-3.8782	-1.4646
-4.347	-1.4672
-4.347	-1.4662
-5.9879	-1.4664
-5.4019	-1.4659
-8.0975	-1.4675
-6.6911	-1.467
-5.8707	-1.468
-5.4019	-1.4695
-7.3943	-1.4672
-5.9879	-1.4692
-5.2847	-1.4679
-6.3395	-1.4691
-6.5739	-1.4691
-4.347	-1.471
-6.4567	-1.4691
-7.6287	-1.4705
-7.3943	-1.4711
-7.0427	-1.4726
-6.3395	-1.473
-5.5191	-1.4727
-9.9728	-1.4722
-8.6836	-1.4722
-7.8631	-1.4721
-8.4492	-1.4724
-9.6212	-1.4745
-8.0975	-1.474
-8.0975	-1.474
-8.5664	-1.4742
-7.6287	-1.4755
-8.0975	-1.475
-7.2771	-1.475
-7.746	-1.4771
-6.3395	-1.4775
-8.918	-1.476
-8.2148	-1.4757
-8.2148	-1.4761
-10.4416	-1.4766
-9.9728	-1.4774
-9.8556	-1.4785
-9.3868	-1.4776
-10.09	-1.4774
-11.0276	-1.4795
-8.4492	-1.4781
-10.9104	-1.481
-10.2072	-1.4804
-11.1448	-1.4805
-9.7384	-1.4791
-14.3093	-1.4817
-12.5513	-1.4814
-11.848	-1.4815
-11.848	-1.4822
-11.0276	-1.4821
-13.0201	-1.4825
-11.1448	-1.4836
-13.7233	-1.4822
-12.7857	-1.4831
-11.848	-1.4851
-13.4889	-1.4834
-11.4965	-1.485
-11.4965	-1.4855
-12.7857	-1.4841
-13.7233	-1.4875
-12.7857	-1.486
-12.5513	-1.4875
-11.848	-1.487
-12.9029	-1.4864
-15.5986	-1.4869
-12.5513	-1.488
-13.3717	-1.4872
-12.9029	-1.488
-12.3169	-1.4876
-12.5513	-1.4905
-11.848	-1.4896
-16.0674	-1.4897
-13.4889	-1.4901
-16.7706	-1.4906
-13.7233	-1.4917
-14.1921	-1.4906
-14.6609	-1.492
-16.0674	-1.492
-15.1297	-1.4901
-14.6609	-1.492
-15.5986	-1.493
-15.3642	-1.4915
-16.6534	-1.4917
-16.7706	-1.4935
-14.6609	-1.4948
-14.8953	-1.496
-15.7157	-1.4945
-16.0674	-1.495
-16.1846	-1.4946
-18.4114	-1.4955
-15.7157	-1.4965
-15.3642	-1.4971
-15.5986	-1.4961
-18.2942	-1.4968
-14.3093	-1.497
-18.9974	-1.4978
-16.5362	-1.4956
-15.0125	-1.497
-15.2469	-1.4983
-17.005	-1.4985
-17.9426	-1.499
-16.5362	-1.5
-17.591	-1.501
-18.0598	-1.4995
-14.6609	-1.5
-18.4114	-1.5005
-20.7555	-1.502
-19.3491	-1.5014
-17.9426	-1.5015
-17.591	-1.502
-18.4114	-1.5019
-17.2394	-1.5039
-18.4114	-1.5021
-18.5286	-1.5038
-17.591	-1.5055
-19.3491	-1.5031
-17.7082	-1.506
-18.6458	-1.506
-17.4738	-1.5061
-18.8803	-1.5063
-18.8803	-1.505
-19.9351	-1.5056
-18.6458	-1.507
-20.7555	-1.5076
-21.2243	-1.5063
-20.9899	-1.5065
-20.5211	-1.508
-20.7555	-1.5061
-20.9899	-1.5078
-20.4039	-1.5084
-19.9351	-1.5083
-20.8727	-1.5086
-20.1695	-1.5096
-16.5362	-1.5093
-23.2167	-1.511
-23.0995	-1.5113
-20.2867	-1.5115
-21.1071	-1.511
-20.7555	-1.5115
-20.9899	-1.5123
-20.2867	-1.5133
-21.5759	-1.5118
-24.506	-1.514
-22.0447	-1.514
-20.6383	-1.5135
-24.506	-1.5138
-25.3264	-1.515
-22.3963	-1.5129
-24.506	-1.5148
-22.8652	-1.5153
-24.1544	-1.516
-24.0372	-1.517
-25.4436	-1.5163
-22.8652	-1.5159
-23.4512	-1.5171
-23.5684	-1.5176
-22.8652	-1.5169
-23.5684	-1.5185
-24.1544	-1.518
-23.5684	-1.519
-24.0372	-1.5184
-24.7404	-1.5186
-23.5684	-1.5195
-24.3888	-1.5193
-25.2092	-1.5194
-24.9748	-1.5215
-25.5608	-1.5215
-24.9748	-1.5205
-26.0296	-1.5211
-25.092	-1.522
-26.3812	-1.522
-22.8652	-1.5223
-24.1544	-1.5229
-25.2092	-1.5219
-26.0296	-1.5224
-25.678	-1.5234
-26.4984	-1.5226
-25.678	-1.5245
-28.0221	-1.5231
-28.4909	-1.5246
-25.092	-1.5243
-25.678	-1.5253
-26.6156	-1.528
-26.4984	-1.5264
-27.4361	-1.527
-26.9673	-1.528
-28.3737	-1.528
-28.7253	-1.5276
-25.4436	-1.5293
-26.4984	-1.529
-27.3189	-1.5266
-27.7877	-1.5285
-28.3737	-1.5303
-26.3812	-1.5289
-27.7877	-1.5316
-28.2565	-1.5305
-29.1941	-1.5305
-27.6705	-1.532
-28.9597	-1.5306
-31.7726	-1.533
-28.3737	-1.5316
-28.9597	-1.532
-30.4834	-1.5355
-31.5382	-1.5345
-29.6629	-1.5343
-30.1317	-1.536
-31.5382	-1.5358
-30.4834	-1.5365
-31.0694	-1.5369
-32.1242	-1.5365
-32.4758	-1.5375
-29.5457	-1.538
-31.421	-1.5385
-32.4758	-1.5385
-34.351	-1.5381
-30.7178	-1.5375
-30.3661	-1.538
-33.6478	-1.5391
-32.4758	-1.5386
-31.1866	-1.5396
-31.5382	-1.539
-34.1166	-1.541
-31.5382	-1.5406
-32.2414	-1.541
-32.4758	-1.5404
-32.9446	-1.5415
-32.007	-1.5419
-33.9995	-1.542
-33.8822	-1.542
-32.9446	-1.5429
-32.1242	-1.5433
-33.6478	-1.5435
-33.2962	-1.544
-33.179	-1.5446
-35.0543	-1.5444
-35.8747	-1.5455
-32.9446	-1.5431
-33.4134	-1.5445
-32.9446	-1.5458
-37.1639	-1.5445
-33.5306	-1.547
-33.6478	-1.546
-36.6951	-1.548
-33.5306	-1.548
-34.351	-1.5474
-33.9995	-1.5472
-37.1639	-1.5478
-37.3983	-1.5495
-34.351	-1.5505
-37.6327	-1.552
-38.2187	-1.551
-38.4531	-1.5494
-35.4059	-1.5505
-36.5779	-1.5497
-35.1715	-1.5512
-35.4059	-1.552
-34.5854	-1.5525
-36.3435	-1.5523
-37.2811	-1.5522
-39.508	-1.5532
-36.5779	-1.554
-37.1639	-1.5542
-36.6951	-1.5538
-37.9843	-1.5555
-38.1015	-1.5543
-37.1639	-1.5553
-38.3359	-1.556
-39.9768	-1.5567
-37.3983	-1.556
-38.2187	-1.5569
-36.5779	-1.5575
-41.6176	-1.5568
-37.5155	-1.5565
-37.2811	-1.5588
-38.5704	-1.5583
-37.8671	-1.558
-38.1015	-1.5587
-38.922	-1.559
-38.5704	-1.5593
-38.922	-1.5582
-38.922	-1.5595
-37.6327	-1.5597
-40.5628	-1.5608
-39.6252	-1.5615
-38.6876	-1.5625
-38.8048	-1.5612
-41.5004	-1.563
-39.7424	-1.562
-39.2736	-1.562
-41.266	-1.5635
-39.1564	-1.5624
-40.094	-1.5629
-41.5004	-1.5634
-40.7972	-1.5643
-41.8521	-1.565
-40.9144	-1.5662
-40.7972	-1.5658
-41.8521	-1.5659
-40.4456	-1.5658
-41.0316	-1.566
-40.7972	-1.567
-44.8993	-1.567
-41.6176	-1.5664
-42.6725	-1.5672
-41.5004	-1.569
-41.3832	-1.57
-41.8521	-1.5678
-42.0864	-1.5692
-40.2112	-1.5705
-43.0241	-1.57
-43.3757	-1.5705
-42.7897	-1.5694
-42.5553	-1.571
-43.2585	-1.5727
-42.7897	-1.5717
-42.3209	-1.5717
-42.0864	-1.5717
-44.6649	-1.573
-43.6101	-1.5734
-43.4929	-1.5722
-44.6649	-1.574
-44.1961	-1.5738
-44.6649	-1.575
-45.3681	-1.5737
-44.8993	-1.5749
-45.4853	-1.5753
-46.0714	-1.5747
-43.2585	-1.5767
-47.8294	-1.577
-44.7821	-1.5783
-45.2509	-1.579
-44.8993	-1.5775
-44.6649	-1.578
-47.4778	-1.5788
-46.0714	-1.5789
-46.6574	-1.5777
-44.7821	-1.5782
-45.3681	-1.5799
-45.1337	-1.5815
-46.3058	-1.58
-46.3058	-1.58
-47.009	-1.581
-48.4154	-1.5803
-47.7122	-1.5824
-46.423	-1.5812
-47.4778	-1.5822
-47.4778	-1.5808
-48.8842	-1.5818
-46.0714	-1.584
-46.7746	-1.5819
-47.4778	-1.5818
-50.2907	-1.5853
-48.2982	-1.5842
-47.3606	-1.5835
-46.1886	-1.5852
-48.6498	-1.5852
-48.4154	-1.5845
-50.8767	-1.586
-48.767	-1.5858
-49.5874	-1.5873
-50.7595	-1.5853
-48.8842	-1.5872
-48.8842	-1.5874
-47.7122	-1.5889
-49.353	-1.5877
-50.9939	-1.5889
-49.0014	-1.588
-48.8842	-1.589
-49.4702	-1.5894
-48.2982	-1.5895
-52.2831	-1.5905
-49.353	-1.5897
-51.4627	-1.5905
-51.5799	-1.5918
-47.7122	-1.5927
-50.7595	-1.5925
-49.353	-1.5913
-51.2283	-1.5923
-50.0563	-1.5922
-49.1186	-1.5923
-51.3455	-1.5933
-51.6971	-1.595
-53.5724	-1.5942
-51.4627	-1.5953
-56.1508	-1.596
-51.3455	-1.596
-52.0487	-1.5945
-53.1035	-1.5965
-50.6423	-1.596
-52.0487	-1.598
-53.5724	-1.5975
-52.9863	-1.598
-52.7519	-1.5975
-55.682	-1.5964
-51.9315	-1.5979
-52.1659	-1.6
-55.7992	-1.5987
-53.4551	-1.5977
-53.1035	-1.5985
-55.9164	-1.599
-52.9863	-1.6002
-53.8068	-1.5995
-52.4003	-1.5998
-54.0412	-1.6021
-53.1035	-1.5997
-54.7444	-1.6005
-53.924	-1.6021
-56.854	-1.6041
-55.9164	-1.6032
-56.854	-1.6026
-55.096	-1.6041
-54.1584	-1.6029
-54.2756	-1.6056
-56.1508	-1.6056
-54.6272	-1.6048
-54.6272	-1.6048
-59.0809	-1.6037
-56.854	-1.6061
-55.096	-1.6058
-55.2132	-1.6071
-54.2756	-1.6062
-56.854	-1.6091
-56.854	-1.6064
-56.5024	-1.6081
-56.3852	-1.6081
-60.6045	-1.6081
-55.9164	-1.6078
-55.7992	-1.6106
-58.7293	-1.6087
-56.0336	-1.6098
-59.6669	-1.6106
-57.4401	-1.6093
-57.3229	-1.6087
-56.7368	-1.6089
-55.7992	-1.6097
-56.9712	-1.6096
-56.9712	-1.6117
-57.7917	-1.6103
-58.2605	-1.6099
-57.0884	-1.6087
-58.0261	-1.6111
-57.2056	-1.6092
-57.7917	-1.6094
-56.9712	-1.6111
-56.1508	-1.6102
-58.0261	-1.6108
-58.7293	-1.6106
-58.2605	-1.6116
-54.6272	-1.6089
-58.9637	-1.6111
-56.9712	-1.6106
-56.7368	-1.6107
-56.9712	-1.6108
-58.0261	-1.6087
-56.0336	-1.6097
-57.6745	-1.6121
-55.9164	-1.6106
-55.3304	-1.6101
-54.7444	-1.6094
-56.3852	-1.6091
-55.5648	-1.6071
-55.7992	-1.6092
-56.3852	-1.6091
-55.5648	-1.6086
-55.096	-1.6068
-56.268	-1.6066
-56.854	-1.6076
-56.3852	-1.6061
-55.096	-1.6046
-54.8616	-1.6051
-55.4476	-1.6054
-55.4476	-1.6056
-54.2756	-1.6053
-54.7444	-1.6036
-56.5024	-1.6046
-54.0412	-1.6031
-54.51	-1.6036
-54.3928	-1.6017
-54.0412	-1.6031
-54.0412	-1.6026
-54.51	-1.6026
-54.1584	-1.6011
-53.2207	-1.6009
-53.924	-1.6007
-53.1035	-1.6023
-53.6896	-1.5997
-53.4551	-1.6013
-55.2132	-1.5995
-53.2207	-1.6007
-52.0487	-1.5985
-52.0487	-1.5992
-52.0487	-1.5972
-53.3379	-1.5963
-52.1659	-1.597
-52.6347	-1.5973
-55.4476	-1.596
-55.4476	-1.5977
-54.0412	-1.596
-52.1659	-1.596
-53.1035	-1.5954
-51.6971	-1.5947
-54.51	-1.5943
-52.0487	-1.5937
-51.2283	-1.5952
-50.1735	-1.5943
-52.7519	-1.596
-49.353	-1.5927
-53.5724	-1.5917
-51.4627	-1.5925
-50.2907	-1.592
-50.4079	-1.5935
-51.2283	-1.5913
-50.2907	-1.5917
-49.8219	-1.5902
-48.8842	-1.591
-50.2907	-1.591
-48.8842	-1.5904
-50.4079	-1.5903
-47.7122	-1.5887
-50.4079	-1.5908
-49.353	-1.588
-49.353	-1.5885
-49.8219	-1.588
-48.6498	-1.5887
-48.8842	-1.588
-49.0014	-1.587
-49.1186	-1.5857
-51.6971	-1.5878
-48.0638	-1.5859
-47.4778	-1.5865
-50.2907	-1.5859
-47.4778	-1.5847
-50.2907	-1.5849
-48.181	-1.5832
-46.423	-1.5849
-46.423	-1.5837
-49.353	-1.584
-47.595	-1.5845
-47.7122	-1.5817
-47.9466	-1.5818
-48.6498	-1.5825
-47.4778	-1.5823
-47.4778	-1.5812
-49.8219	-1.582
-47.595	-1.5807
-48.0638	-1.5818
-43.9617	-1.5797
-45.7197	-1.5792
-50.8767	-1.58
-46.6574	-1.5792
-47.3606	-1.58
-46.0714	-1.5789
-43.9617	-1.5783
-44.7821	-1.5773
-44.8993	-1.5768
-46.423	-1.5762
-45.6025	-1.5762
-43.2585	-1.5767
-47.009	-1.5768
-46.5402	-1.5752
-44.1961	-1.576
-45.1337	-1.5749
-46.5402	-1.577
-43.6101	-1.5745
-45.7197	-1.5743
-44.8993	-1.5728
-45.6025	-1.574
-46.3058	-1.5727
-42.4381	-1.5712
-44.7821	-1.5713
-45.3681	-1.5743
-42.9069	-1.5712
-44.7821	-1.573
-45.6025	-1.572
-41.9692	-1.5708
-43.7273	-1.5707
-41.9692	-1.5704
-41.5004	-1.5687
-42.6725	-1.5703
-42.3209	-1.5682
-41.9692	-1.5688
-40.9144	-1.5689
-41.8521	-1.5687
-43.2585	-1.5693
-41.8521	-1.5678
-42.3209	-1.5675
-43.3757	-1.5668
-40.5628	-1.5659
-41.6176	-1.5655
-42.3209	-1.567
-40.2112	-1.566
-41.8521	-1.5658
-42.7897	-1.5642
-40.7972	-1.5643
-39.8596	-1.565
-41.8521	-1.5638
-40.9144	-1.5648
-39.0392	-1.563
-40.094	-1.5638
-39.8596	-1.563
-38.922	-1.5625
-39.7424	-1.5618
-39.2736	-1.563
-39.508	-1.562
-41.3832	-1.5609
-41.8521	-1.561
-40.7972	-1.5597
-36.4607	-1.5605
-37.8671	-1.559
-38.922	-1.5584
-39.6252	-1.559
-37.1639	-1.5572
-39.0392	-1.559
-38.922	-1.557
-39.3908	-1.5557
-38.1015	-1.557
-37.1639	-1.5567
-37.1639	-1.5569
-35.9919	-1.5575
-39.508	-1.555
-37.0467	-1.5552
-37.8671	-1.556
-35.9919	-1.5555
-37.5155	-1.5558
-37.2811	-1.5543
-37.6327	-1.554
-36.6951	-1.5543
-37.1639	-1.553
-37.2811	-1.5525
-35.7575	-1.5532
-35.8747	-1.5519
-36.4607	-1.5528
-37.8671	-1.553
-37.6327	-1.552
-36.2263	-1.5509
-36.1091	-1.55
-35.2887	-1.5488
-35.6403	-1.5493
-33.2962	-1.5492
-35.5231	-1.5487
-36.4607	-1.5495
-34.351	-1.549
-34.351	-1.5473
-33.6478	-1.5488
-33.4134	-1.5473
-34.8199	-1.548
-33.9995	-1.5456
-33.6478	-1.5479
-31.5382	-1.5456
-33.0618	-1.5461
-33.9995	-1.546
-34.351	-1.5456
-33.8822	-1.547
-31.5382	-1.5446
-32.2414	-1.545
-32.3586	-1.5438
-32.7102	-1.543
-35.2887	-1.544
-32.9446	-1.5423
-33.4134	-1.542
-31.6554	-1.5428
-33.179	-1.544
-32.1242	-1.5419
-34.351	-1.541
-32.2414	-1.5408
-32.7102	-1.5401
-31.8898	-1.541
-29.7801	-1.54
-32.9446	-1.54
-30.1317	-1.5388
-30.7178	-1.5371
-32.4758	-1.5395
-30.2489	-1.538
-30.8349	-1.538
-31.5382	-1.5368
-32.7102	-1.5383
-32.007	-1.5368
-30.0145	-1.5376
-29.4285	-1.536
-29.6629	-1.537
-29.3113	-1.5365
-29.0769	-1.5344
-30.7178	-1.5331
-32.4758	-1.5354
-30.0145	-1.533
-28.8425	-1.5325
-30.1317	-1.5339
-28.8425	-1.5323
-29.7801	-1.532
-30.1317	-1.5319
-29.7801	-1.5328
-29.0769	-1.5309
-28.7253	-1.5315
-27.2017	-1.531
-28.7253	-1.5306
-28.3737	-1.5296
-31.5382	-1.5295
-26.9673	-1.5296
-31.0694	-1.5284
-28.2565	-1.5298
-27.0844	-1.529
-25.9124	-1.528
-26.0296	-1.5271
-27.6705	-1.53
-26.1468	-1.529
-26.85	-1.529
-26.7328	-1.527
-26.6156	-1.5276
-27.3189	-1.526
-26.3812	-1.526
-25.678	-1.526
-26.1468	-1.5268
-25.4436	-1.5265
-26.3812	-1.5254
-25.9124	-1.525
-25.3264	-1.524
-26.1468	-1.523
-25.678	-1.5231
-25.5608	-1.523
-24.7404	-1.5221
-26.1468	-1.5219
-23.2167	-1.5216
-24.9748	-1.521
-27.7877	-1.5216
-24.6232	-1.5213
-25.5608	-1.5208
-25.2092	-1.5203
-27.3189	-1.5201
-24.506	-1.521
-26.85	-1.52
-23.92	-1.5209
-22.5135	-1.5171
-23.4512	-1.518
-27.5533	-1.5183
-23.3339	-1.5176
-23.8028	-1.518
-23.6856	-1.517
-23.5684	-1.5168
-22.0447	-1.5155
-22.2791	-1.516
-21.8103	-1.5156
-24.6232	-1.516
-22.0447	-1.5161
-22.7479	-1.5141
-22.3963	-1.5145
-22.1619	-1.514
-21.3415	-1.5146
-24.2716	-1.5134
-21.3415	-1.513
-21.3415	-1.5123
-22.7479	-1.5126
-21.5759	-1.5119
-20.8727	-1.5125
-17.4738	-1.5116
-21.6931	-1.5106
-21.4587	-1.5118
-21.4587	-1.509
-20.4039	-1.5095
-20.6383	-1.5104
-20.5211	-1.5093
-21.2243	-1.5085
-21.4587	-1.51
-20.7555	-1.5103
-23.92	-1.5076
-18.6458	-1.5075
-19.7006	-1.5076
-21.6931	-1.508
-19.3491	-1.507
-18.763	-1.506
-19.7006	-1.5063
-18.4114	-1.5066
-18.4114	-1.505
-20.1695	-1.5048
-19.2318	-1.5058
-19.8179	-1.504
-19.3491	-1.504
-18.2942	-1.505
-17.9426	-1.5044
-19.3491	-1.5033
-19.3491	-1.5026
-16.7706	-1.5011
-17.005	-1.5035
-17.3566	-1.5009
-18.6458	-1.502
-19.3491	-1.502
-15.9501	-1.5009
-16.419	-1.5003
-17.2394	-1.499
-17.4738	-1.4995
-15.2469	-1.4988
-15.7157	-1.4991
-16.1846	-1.4993
-16.419	-1.4993
-17.7082	-1.4993
-17.4738	-1.4963
-16.5362	-1.498
-15.833	-1.4985
-16.0674	-1.4969
-17.8254	-1.4964
-15.833	-1.4979
-15.2469	-1.4951
-18.9974	-1.4956
-17.1222	-1.496
-15.1297	-1.4936
-14.3093	-1.4936
-14.7781	-1.4959
-14.0749	-1.4931
-11.848	-1.4931
-15.3642	-1.4924
-16.0674	-1.4917
-16.7706	-1.4921
-13.3717	-1.4921
-12.6685	-1.4921
-13.8405	-1.492
-12.9029	-1.4912
-14.0749	-1.4897
-14.7781	-1.4911
-13.9577	-1.4915
-12.4341	-1.4902
-14.5437	-1.4907
-14.6609	-1.4905
-13.2545	-1.4899
-15.5986	-1.4895
-12.5513	-1.4885
-11.4965	-1.4895
-14.1921	-1.4877
-12.7857	-1.488
-14.3093	-1.4866
-12.6685	-1.488
-13.4889	-1.487
-10.9104	-1.487
-15.7157	-1.4857
-12.9029	-1.4857
-11.262	-1.4869
-12.7857	-1.4857
-11.0276	-1.4855
-12.6685	-1.4835
-10.4416	-1.483
-11.848	-1.484
-11.848	-1.4829
-11.6136	-1.4825
-10.2072	-1.4825
-10.5588	-1.483
-10.9104	-1.4811
-9.9728	-1.481
-11.4965	-1.4799
-10.4416	-1.48
-10.9104	-1.4815
-9.1524	-1.4815
-10.4416	-1.4797
-10.5588	-1.4795
-10.5588	-1.4802
-10.4416	-1.479
-9.6212	-1.4795
-8.8008	-1.4787
-8.0975	-1.4776
-10.676	-1.478
-9.504	-1.4764
-8.2148	-1.4766
-10.4416	-1.475
-9.504	-1.4765
-9.2696	-1.476
-6.3395	-1.476
-7.8631	-1.4769
-9.504	-1.4756
-9.9728	-1.4749
-8.8008	-1.4734
-9.1524	-1.474
-7.1599	-1.472
-6.8083	-1.4717
-8.0975	-1.474
-8.6836	-1.472
-8.0975	-1.4706
-6.4567	-1.4711
-7.6287	-1.4707
-7.9804	-1.4715
-6.4567	-1.472
-5.7535	-1.471
-4.347	-1.47
-10.9104	-1.4692
-6.1051	-1.4686
-6.1051	-1.4676
-6.5739	-1.4695
-5.6363	-1.468
-4.4643	-1.4674
-4.347	-1.468
-5.9879	-1.4679
-4.9331	-1.468
-7.0427	-1.466
-3.9955	-1.4672
-4.347	-1.465
-7.3943	-1.4654
-3.9955	-1.4654
-2.1202	-1.4665
-4.347	-1.4636
-2.8234	-1.466
-3.8782	-1.4632
-4.347	-1.4639
-4.347	-1.4641
-4.347	-1.4632
-3.0578	-1.4625
-3.9955	-1.4622
-2.9406	-1.463
-3.5266	-1.4614
-3.0578	-1.4615
-2.7062	-1.4616
-2.7062	-1.4596
-1.1826	-1.4614
-2.003	-1.461
-4.2299	-1.461
-2.1202	-1.46
-3.9955	-1.4587
-1.5342	-1.4587
-1.7686	-1.4581
-3.8782	-1.4579
-1.7686	-1.4579
-1.6514	-1.4579
-0.4794	-1.4575
-2.003	-1.4561
-1.0654	-1.457
-4.1126	-1.4554
-2.4718	-1.4562
-2.2374	-1.4555
-2.003	-1.4555
-0.1278	-1.4549
-2.3546	-1.455
-0.7138	-1.455
-0.7138	-1.4551
-0.7138	-1.456
-2.1202	-1.4545
-1.5342	-1.4546
-2.003	-1.455
-1.0654	-1.4536
-1.0654	-1.455
-2.1202	-1.4552